#Acq. time (s)=	1
#Accumulations=	1
#Range (nm)=	580...760
#Windows=	4
#Auto scanning=	Off
#Autofocus=	Off
#AutoExposure=	Off
#Spike filter=	Off
#Delay time (s)=	0
#Binning=	1
#Readout mode=	Signal
#DeNoise=	Off
#ICS correction=	Off
#Dark correction=	Off
#Inst. Process=	Off
#Detector temperature (°C)=	-60.16
#Instrument=	LabRAM HR Evol
#Detector=	Syncerity OE
#Objective=	x100_VIS
#Grating=	600 (500nm)
#ND Filter=	25%
#Laser=	532nm_Edge
#Hole=	300.003
#Range=	Visible
#AFM=	Off
#Laser. Pol.=	HWPL-VIS
#Raman. Pol.=	P-350/2300
#Laser Pol. (°)=	180
#Raman Pol. (°)=	130
#StageXY (mm)=	75x50
#StageZ=	Z motor
#X (µm)=	-26697.8
#Y (µm)=	-2387.3
#Z (µm)=	-1341.5
#Full time(s)=	30
#Project=	A
#Sample=	B
#Site=	C
#Title=	-30-3-0p1_77
#Remark=	
#Date=	14.08.2020 14:47
#Acquired=	14.08.2020 14:47:27
580.073	22
580.125	16
580.177	32
580.23	26
580.282	22
580.334	30
580.387	30
580.439	24
580.492	20
580.544	22
580.596	34
580.649	28
580.701	22
580.753	26
580.806	24
580.858	22
580.91	22
580.963	28
581.015	20
581.067	28
581.12	28
581.172	20
581.224	22
581.277	20
581.329	20
581.382	30
581.434	22
581.486	28
581.539	26
581.591	26
581.643	24
581.696	24
581.748	28
581.8	30
581.853	28
581.905	36
581.957	18
582.01	24
582.062	24
582.114	20
582.167	14
582.219	28
582.271	24
582.324	20
582.376	32
582.429	26
582.481	24
582.533	24
582.586	26
582.638	20
582.69	24
582.743	20
582.795	24
582.847	26
582.9	30
582.952	20
583.004	24
583.057	26
583.109	20
583.161	22
583.214	22
583.266	20
583.318	18
583.371	26
583.423	30
583.475	18
583.528	28
583.58	30
583.632	32
583.685	22
583.737	16
583.789	20
583.842	20
583.894	26
583.946	28
583.999	22
584.051	18
584.103	28
584.156	24
584.208	24
584.26	22
584.313	28
584.365	20
584.417	26
584.47	20
584.522	30
584.574	26
584.627	24
584.679	26
584.731	18
584.784	24
584.836	28
584.888	22
584.941	18
584.993	26
585.045	18
585.097	26
585.15	24
585.202	24
585.254	24
585.307	22
585.359	28
585.411	24
585.464	22
585.516	24
585.568	22
585.621	26
585.673	14
585.725	20
585.778	22
585.83	22
585.882	22
585.935	30
585.987	28
586.039	14
586.092	28
586.144	20
586.196	16
586.248	28
586.301	34
586.353	24
586.405	24
586.458	28
586.51	26
586.562	24
586.615	32
586.667	22
586.719	12
586.772	26
586.824	28
586.876	30
586.929	16
586.981	24
587.033	32
587.085	22
587.138	26
587.19	26
587.242	24
587.295	22
587.347	24
587.399	26
587.452	26
587.504	20
587.556	14
587.608	16
587.661	28
587.713	28
587.765	20
587.818	24
587.87	28
587.922	22
587.975	14
588.027	28
588.079	20
588.131	22
588.184	26
588.236	26
588.288	22
588.341	24
588.393	26
588.445	28
588.498	32
588.55	22
588.602	22
588.654	26
588.707	22
588.759	24
588.811	30
588.864	24
588.916	30
588.968	20
589.02	20
589.073	34
589.125	18
589.177	20
589.23	24
589.282	24
589.334	34
589.386	24
589.439	28
589.491	26
589.543	24
589.596	30
589.648	24
589.7	28
589.753	24
589.805	28
589.857	26
589.909	20
589.962	22
590.014	26
590.066	20
590.118	22
590.171	26
590.223	16
590.275	26
590.328	24
590.38	26
590.432	20
590.484	36
590.537	24
590.589	18
590.641	26
590.694	22
590.746	22
590.798	16
590.85	24
590.903	24
590.955	18
591.007	26
591.059	16
591.112	22
591.164	26
591.216	26
591.268	24
591.321	18
591.373	24
591.425	28
591.478	14
591.53	18
591.582	20
591.634	24
591.687	22
591.739	30
591.791	26
591.843	16
591.896	26
591.948	22
592	22
592.053	22
592.105	24
592.157	26
592.209	28
592.262	22
592.314	30
592.366	16
592.418	20
592.471	20
592.523	20
592.575	24
592.627	26
592.68	20
592.732	24
592.784	28
592.836	26
592.889	18
592.941	20
592.993	24
593.045	20
593.098	38
593.15	32
593.202	32
593.255	24
593.307	28
593.359	18
593.411	16
593.464	30
593.516	16
593.568	22
593.62	24
593.672	30
593.725	26
593.777	26
593.829	34
593.882	26
593.934	28
593.986	32
594.038	18
594.091	18
594.143	14
594.195	26
594.247	24
594.299	28
594.352	24
594.404	24
594.456	28
594.508	24
594.561	26
594.613	24
594.665	16
594.717	28
594.77	26
594.822	24
594.874	20
594.926	30
594.979	30
595.031	20
595.083	24
595.135	30
595.188	30
595.24	24
595.292	26
595.344	20
595.397	30
595.449	26
595.501	30
595.553	20
595.605	26
595.658	20
595.71	26
595.762	26
595.814	18
595.867	26
595.919	26
595.971	22
596.023	26
596.076	24
596.128	26
596.18	24
596.232	24
596.284	18
596.337	32
596.389	20
596.441	24
596.493	24
596.546	26
596.598	24
596.65	22
596.702	26
596.754	26
596.807	18
596.859	24
596.911	24
596.963	28
597.016	26
597.068	26
597.12	30
597.172	28
597.224	32
597.277	28
597.329	26
597.381	26
597.433	26
597.486	24
597.538	32
597.59	26
597.642	26
597.694	24
597.747	24
597.799	20
597.851	30
597.903	26
597.956	30
598.008	28
598.06	24
598.112	24
598.164	24
598.217	18
598.269	30
598.321	22
598.373	26
598.425	24
598.478	28
598.53	28
598.582	30
598.634	24
598.686	24
598.739	20
598.791	22
598.843	22
598.895	28
598.947	28
599	34
599.052	22
599.104	26
599.156	24
599.208	14
599.261	26
599.313	20
599.365	32
599.417	24
599.469	22
599.522	28
599.574	30
599.626	20
599.678	32
599.73	28
599.783	28
599.835	28
599.887	20
599.939	26
599.991	24
600.044	26
600.096	20
600.148	28
600.2	28
600.252	26
600.305	30
600.357	28
600.409	28
600.461	20
600.513	32
600.566	22
600.618	32
600.67	24
600.722	20
600.774	18
600.826	28
600.879	26
600.931	26
600.983	30
601.035	36
601.087	26
601.14	26
601.192	22
601.244	26
601.296	26
601.348	30
601.401	24
601.453	36
601.505	22
601.557	28
601.609	28
601.661	30
601.714	26
601.766	26
601.818	26
601.87	30
601.922	26
601.974	24
602.027	18
602.079	28
602.131	32
602.183	26
602.235	26
602.287	28
602.34	24
602.392	34
602.444	26
602.496	28
602.548	28
602.601	32
602.653	28
602.705	16
602.757	22
602.809	30
602.861	20
602.914	26
602.966	30
603.018	28
603.07	24
603.122	24
603.174	34
603.227	20
603.279	28
603.331	28
603.383	28
603.435	26
603.487	20
603.54	28
603.592	32
603.644	28
603.696	34
603.748	24
603.8	18
603.852	22
603.905	24
603.957	24
604.009	20
604.061	24
604.113	32
604.165	28
604.218	28
604.27	26
604.322	22
604.374	22
604.426	28
604.478	20
604.531	26
604.583	32
604.635	22
604.687	30
604.739	28
604.791	26
604.843	22
604.896	14
604.948	26
605	26
605.052	26
605.104	26
605.156	30
605.208	32
605.261	22
605.313	34
605.365	24
605.417	34
605.469	30
605.521	20
605.573	24
605.626	20
605.678	30
605.73	26
605.782	22
605.834	26
605.886	28
605.938	24
605.991	30
606.043	22
606.095	30
606.147	24
606.199	22
606.251	22
606.303	28
606.356	26
606.408	28
606.46	30
606.512	28
606.564	26
606.616	24
606.668	32
606.72	30
606.773	28
606.825	26
606.877	34
606.929	30
606.981	26
607.033	20
607.085	30
607.138	28
607.19	32
607.242	22
607.294	38
607.346	26
607.398	24
607.45	26
607.502	32
607.555	28
607.607	22
607.659	26
607.711	32
607.763	26
607.815	20
607.867	22
607.919	28
607.971	36
608.024	22
608.076	28
608.128	28
608.18	32
608.232	20
608.284	26
608.336	26
608.388	20
608.441	26
608.493	26
608.545	24
608.597	28
608.649	34
608.701	18
608.753	26
608.805	32
608.857	32
608.91	26
608.962	30
609.014	34
609.066	34
609.118	24
609.17	30
609.222	32
609.274	22
609.326	34
609.379	32
609.431	18
609.483	26
609.535	30
609.587	26
609.639	32
609.691	28
609.743	26
609.795	30
609.847	16
609.9	34
609.952	32
610.004	22
610.056	38
610.108	24
610.16	28
610.212	26
610.264	28
610.316	32
610.368	26
610.421	20
610.473	28
610.525	30
610.577	30
610.629	28
610.681	32
610.733	28
610.785	12
610.837	26
610.889	24
610.942	42
610.994	30
611.046	28
611.098	22
611.15	24
611.202	32
611.254	26
611.306	36
611.358	36
611.41	14
611.462	32
611.514	26
611.567	32
611.619	16
611.671	32
611.723	34
611.775	26
611.827	24
611.879	30
611.931	38
611.983	20
612.035	34
612.087	22
612.139	30
612.192	22
612.244	32
612.296	24
612.348	28
612.4	32
612.452	28
612.504	42
612.556	30
612.608	24
612.66	20
612.712	30
612.764	30
612.816	32
612.869	32
612.921	30
612.973	24
613.025	38
613.077	28
613.129	28
613.181	26
613.233	34
613.285	34
613.337	30
613.389	30
613.441	24
613.493	32
613.545	34
613.597	26
613.65	32
613.702	28
613.754	24
613.806	38
613.858	26
613.91	28
613.962	28
614.014	28
614.066	22
614.118	34
614.17	24
614.222	26
614.274	30
614.326	34
614.378	34
614.43	30
614.482	30
614.535	32
614.587	28
614.639	34
614.691	20
614.743	32
614.795	32
614.847	22
614.899	32
614.951	28
615.003	22
615.055	26
615.107	36
615.159	28
615.211	26
615.263	38
615.315	28
615.367	30
615.419	30
615.471	38
615.523	32
615.576	36
615.628	32
615.68	32
615.732	38
615.784	24
615.836	28
615.888	42
615.94	42
615.992	24
616.044	28
616.096	26
616.148	24
616.2	36
616.252	32
616.304	26
616.356	26
616.408	24
616.46	26
616.512	32
616.564	24
616.616	30
616.668	30
616.72	36
616.772	32
616.825	30
616.877	30
616.929	40
616.981	28
617.033	28
617.085	36
617.137	26
617.189	30
617.241	32
617.293	36
617.345	24
617.397	38
617.449	32
617.501	30
617.553	34
617.605	32
617.657	30
617.709	34
617.761	30
617.813	38
617.865	30
617.917	40
617.969	28
618.021	26
618.073	38
618.125	32
618.177	30
618.229	38
618.281	24
618.333	32
618.385	32
618.437	28
618.489	40
618.541	34
618.593	24
618.645	32
618.697	30
618.749	42
618.801	28
618.853	36
618.905	36
618.957	38
619.009	34
619.061	30
619.113	36
619.165	40
619.217	30
619.269	34
619.321	30
619.373	50
619.425	32
619.477	40
619.529	34
619.581	36
619.633	26
619.685	32
619.737	38
619.789	26
619.841	32
619.893	28
619.945	28
619.997	36
620.049	32
620.102	34
620.154	32
620.206	40
620.258	32
620.31	42
620.362	40
620.414	38
620.465	24
620.517	26
620.569	42
620.621	28
620.673	32
620.725	42
620.777	34
620.829	34
620.881	36
620.933	26
620.985	38
621.037	36
621.089	40
621.141	36
621.193	38
621.245	32
621.297	34
621.349	34
621.401	42
621.453	28
621.505	32
621.557	30
621.609	44
621.661	38
621.713	40
621.765	30
621.817	42
621.869	44
621.921	34
621.973	32
622.025	40
622.077	28
622.129	36
622.181	32
622.233	34
622.285	32
622.337	34
622.389	40
622.441	32
622.493	42
622.545	36
622.597	40
622.649	36
622.701	38
622.753	34
622.805	40
622.857	44
622.909	39.9951
622.961	27.9978
623.013	34.0697
623.065	36.0447
623.117	39.8806
623.169	30.017
623.22	34.0867
623.272	32.0981
623.324	36.1948
623.376	37.8776
623.428	37.7078
623.48	27.9479
623.532	31.9317
623.584	28.4822
623.636	36
623.688	36.9236
623.74	38.0978
623.792	38.1724
623.844	35.7873
623.896	37.8785
623.948	37.366
624	30.1654
624.052	35.5567
624.104	33.253
624.156	32.3898
624.208	33.9409
624.26	28.7833
624.312	35.3184
624.364	33.2267
624.416	40.6192
624.468	36.9506
624.519	40.5987
624.571	29.9315
624.623	45.9111
624.675	38.4961
624.727	39.588
624.779	34.6195
624.831	41.2611
624.883	34.2165
624.935	31.0549
624.987	33.6437
625.039	33.7571
625.091	33.6749
625.143	38.131
625.195	38.0445
625.247	32.6552
625.299	37.2512
625.351	33.8681
625.403	37.1993
625.455	37.0246
625.506	36.6728
625.558	28.341
625.61	26.8584
625.662	35.11
625.714	39.502
625.766	36.7139
625.818	33.2736
625.87	38.3624
625.922	32.4731
625.974	40.0343
626.026	39.542
626.078	39.6921
626.13	33.0732
626.182	36.2124
626.234	39.1742
626.286	29.4297
626.337	34
626.389	42.8079
626.441	34.2614
626.493	32.8839
626.545	31.7975
626.597	40.7711
626.649	41.2129
626.701	35.069
626.753	44.4254
626.805	39.9903
626.857	35.6436
626.909	29.1453
626.961	38.824
627.013	41.2167
627.064	39.5659
627.116	38.4363
627.168	35.1221
627.22	36.7959
627.272	41.1125
627.324	38.4449
627.376	36.1096
627.428	39.343
627.48	37.2415
627.532	34.2354
627.584	32.2414
627.636	36.2505
627.688	36.4557
627.739	39.6927
627.791	38
627.843	37.3683
627.895	32.8261
627.947	44.197
627.999	38.4602
628.051	33.5171
628.103	30.6829
628.155	36.1628
628.207	35.132
628.259	39.9069
628.311	37.6541
628.362	43.7761
628.414	38.072
628.466	35.1641
628.518	42.931
628.57	43.3787
628.622	40.464
628.674	41.5616
628.726	37.2225
628.778	33.5818
628.83	42.724
628.882	42.0534
628.933	34.9824
628.985	36.8424
629.037	37.9235
629.089	43.3363
629.141	39.3577
629.193	34.1081
629.245	37.0899
629.297	33.2167
629.349	36.3202
629.401	33.5163
629.452	40.0568
629.504	35.955
629.556	38.6614
629.608	35.497
629.66	40.63
629.712	35.6086
629.764	39.2217
629.816	40.0077
629.868	39.5169
629.919	43.8428
629.971	36
630.023	35.7814
630.075	37.9992
630.127	35.9714
630.179	40.3661
630.231	45.729
630.283	41.8354
630.335	40.9569
630.387	34.102
630.438	37.9387
630.49	36.1693
630.542	35.4294
630.594	31.862
630.646	38.607
630.698	38.066
630.75	42.7271
630.802	36.3762
630.854	34.5999
630.905	34.8094
630.957	39.9649
631.009	37.5468
631.061	42
631.113	41.729
631.165	38.7029
631.217	40.7438
631.269	39.27
631.32	36.2496
631.372	31.8886
631.424	31.2939
631.476	31.9828
631.528	39.9573
631.58	39.978
631.632	39.6012
631.684	44.33
631.735	43.6103
631.787	47.6705
631.839	34.8736
631.891	39.4431
631.943	41.1082
631.995	42.7555
632.047	37.5713
632.099	41.5026
632.15	41.8174
632.202	41.2905
632.254	40.1855
632.306	36.469
632.358	40.3804
632.41	38.4123
632.462	39.7869
632.514	37.4828
632.565	36.9496
632.617	34.1527
632.669	35.265
632.721	44.8494
632.773	46.9925
632.825	41.7734
632.877	42.3103
632.928	41.7192
632.98	41.7128
633.032	38.2094
633.084	39.6811
633.136	41.2089
633.188	29.2091
633.24	43.4011
633.291	34.171
633.343	35.8968
633.395	34.5616
633.445	48
633.497	42
633.549	36
633.601	42
633.653	44
633.706	34
633.758	40
633.81	44
633.862	48
633.914	36
633.966	42
634.018	34
634.07	46
634.122	38
634.174	52
634.226	46
634.278	40
634.33	34
634.383	50
634.435	44
634.487	46
634.539	44
634.591	46
634.643	48
634.695	48
634.747	32
634.799	54
634.851	42
634.903	34
634.955	42
635.007	38
635.059	42
635.111	50
635.164	40
635.216	44
635.268	42
635.32	44
635.372	44
635.424	44
635.476	34
635.528	36
635.58	44
635.632	38
635.684	44
635.736	38
635.788	48
635.84	36
635.892	48
635.944	38
635.996	54
636.049	42
636.101	58
636.153	40
636.205	42
636.257	42
636.309	38
636.361	56
636.413	38
636.465	40
636.517	42
636.569	42
636.621	52
636.673	38
636.725	46
636.777	42
636.829	38
636.881	36
636.933	56
636.985	44
637.037	38
637.09	50
637.142	40
637.194	48
637.246	40
637.298	42
637.35	42
637.402	42
637.454	46
637.506	46
637.558	32
637.61	48
637.662	46
637.714	36
637.766	42
637.818	52
637.87	54
637.922	38
637.974	46
638.026	38
638.078	44
638.13	38
638.182	44
638.234	36
638.286	50
638.339	42
638.391	46
638.443	42
638.495	40
638.547	52
638.599	42
638.651	44
638.703	42
638.755	52
638.807	38
638.859	50
638.911	38
638.963	46
639.015	40
639.067	62
639.119	34
639.171	50
639.223	46
639.275	40
639.327	44
639.379	42
639.431	44
639.483	42
639.535	46
639.587	46
639.639	48
639.691	38
639.743	50
639.795	50
639.847	40
639.899	38
639.951	50
640.003	42
640.055	50
640.107	46
640.159	40
640.211	46
640.263	44
640.315	44
640.367	52
640.419	54
640.471	38
640.524	44
640.576	44
640.628	48
640.68	46
640.732	56
640.784	40
640.836	40
640.888	54
640.94	52
640.992	54
641.044	40
641.096	46
641.148	58
641.2	50
641.252	44
641.304	50
641.356	34
641.408	40
641.46	48
641.512	46
641.564	40
641.616	46
641.668	40
641.72	52
641.772	38
641.824	48
641.876	42
641.928	44
641.98	50
642.032	44
642.084	44
642.136	44
642.188	42
642.24	40
642.292	58
642.344	50
642.396	38
642.448	38
642.5	56
642.552	50
642.604	46
642.656	50
642.708	40
642.76	38
642.812	48
642.864	50
642.916	48
642.968	52
643.02	42
643.072	52
643.124	50
643.176	38
643.228	46
643.28	48
643.332	44
643.384	34
643.436	40
643.488	40
643.54	42
643.591	42
643.643	40
643.695	56
643.747	42
643.799	38
643.851	52
643.903	40
643.955	44
644.007	46
644.059	48
644.111	48
644.163	42
644.215	40
644.267	48
644.319	40
644.371	42
644.423	46
644.475	42
644.527	44
644.579	46
644.631	54
644.683	44
644.735	48
644.787	44
644.839	46
644.891	52
644.943	36
644.995	40
645.047	42
645.099	44
645.151	40
645.203	50
645.255	36
645.307	48
645.359	40
645.411	46
645.463	54
645.515	48
645.567	44
645.619	44
645.671	54
645.722	34
645.774	42
645.826	46
645.878	42
645.93	54
645.982	38
646.034	52
646.086	44
646.138	56
646.19	46
646.242	60
646.294	40
646.346	48
646.398	52
646.45	40
646.502	42
646.554	52
646.606	50
646.658	48
646.71	50
646.762	40
646.814	42
646.866	42
646.918	42
646.969	40
647.021	58
647.073	52
647.125	38
647.177	44
647.229	46
647.281	46
647.333	48
647.385	42
647.437	48
647.489	50
647.541	44
647.593	54
647.645	46
647.697	44
647.749	46
647.801	42
647.853	38
647.905	48
647.956	38
648.008	40
648.06	46
648.112	44
648.164	32
648.216	48
648.268	46
648.32	46
648.372	48
648.424	62
648.476	44
648.528	44
648.58	54
648.632	42
648.684	50
648.736	42
648.788	42
648.839	38
648.891	52
648.943	44
648.995	48
649.047	52
649.099	52
649.151	46
649.203	44
649.255	38
649.307	40
649.359	48
649.411	40
649.463	40
649.515	46
649.566	50
649.618	52
649.67	48
649.722	52
649.774	40
649.826	52
649.878	54
649.93	50
649.982	44
650.034	46
650.086	48
650.138	42
650.19	52
650.241	40
650.293	52
650.345	56
650.397	42
650.449	38
650.501	52
650.553	50
650.605	38
650.657	46
650.709	54
650.761	50
650.813	44
650.865	44
650.916	48
650.968	44
651.02	48
651.072	42
651.124	54
651.176	50
651.228	52
651.28	50
651.332	42
651.384	40
651.435	50
651.487	48
651.539	42
651.591	36
651.643	50
651.695	42
651.747	38
651.799	48
651.851	44
651.903	40
651.955	52
652.006	42
652.058	48
652.11	58
652.162	42
652.214	42
652.266	46
652.318	36
652.37	50
652.422	48
652.474	50
652.525	48
652.577	52
652.629	46
652.681	44
652.733	60
652.785	52
652.837	44
652.889	40
652.941	48
652.992	44
653.044	42
653.096	56
653.148	32
653.2	42
653.252	50
653.304	34
653.356	46
653.408	52
653.46	46
653.511	36
653.563	44
653.615	38
653.667	58
653.719	52
653.771	46
653.823	40
653.875	48
653.927	50
653.978	50
654.03	50
654.082	44
654.134	42
654.186	48
654.238	44
654.29	50
654.342	46
654.393	52
654.445	54
654.497	46
654.549	36
654.601	52
654.653	46
654.705	42
654.757	50
654.808	48
654.86	52
654.912	50
654.964	46
655.016	38
655.068	54
655.12	48
655.172	54
655.223	58
655.275	46
655.327	54
655.379	50
655.431	40
655.483	54
655.535	50
655.586	46
655.638	58
655.69	50
655.742	52
655.794	48
655.846	48
655.898	42
655.95	50
656.001	50
656.053	52
656.105	54
656.157	58
656.209	54
656.261	42
656.313	40
656.364	42
656.416	52
656.468	52
656.52	44
656.572	48
656.624	44
656.676	52
656.727	42
656.779	44
656.831	56
656.883	48
656.935	46
656.987	40
657.038	46
657.09	48
657.142	50
657.194	48
657.246	50
657.298	42
657.35	50
657.401	46
657.453	42
657.505	46
657.557	44
657.609	52
657.661	44
657.712	58
657.764	42
657.816	56
657.868	58
657.92	50
657.972	52
658.024	46
658.075	54
658.127	44
658.179	50
658.231	42
658.283	44
658.335	52
658.386	46
658.438	56
658.49	56
658.542	54
658.594	48
658.646	46
658.697	48
658.749	48
658.801	44
658.853	38
658.905	42
658.957	52
659.008	34
659.06	54
659.112	60
659.164	54
659.216	54
659.268	54
659.319	44
659.371	42
659.423	48
659.475	46
659.527	42
659.578	46
659.63	50
659.682	48
659.734	50
659.786	44
659.838	56
659.889	48
659.941	48
659.993	48
660.045	54
660.097	46
660.149	60
660.2	56
660.252	46
660.304	38
660.356	50
660.408	46
660.459	42
660.511	48
660.563	60
660.615	46
660.667	42
660.719	52
660.77	48
660.822	50
660.874	44
660.926	50
660.978	46
661.029	40
661.081	46
661.133	58
661.185	46
661.237	40
661.288	44
661.34	48
661.392	50
661.444	42
661.496	50
661.547	52
661.599	60
661.651	46
661.703	48
661.755	54
661.806	46
661.858	50
661.91	50
661.962	50
662.014	42
662.065	56
662.117	48
662.169	56
662.221	52
662.273	46
662.324	52
662.376	52
662.428	60
662.48	56
662.532	50
662.583	52
662.635	40
662.687	50
662.739	58
662.791	44
662.842	38
662.894	56
662.946	44
662.998	56
663.049	46
663.101	50
663.153	44
663.205	56
663.257	48
663.308	48
663.36	50
663.412	56
663.464	52
663.516	48
663.567	52
663.619	38
663.671	52
663.723	54
663.774	46
663.826	58
663.878	60
663.93	42
663.982	46
664.033	52
664.085	44
664.137	54
664.189	50
664.24	52
664.292	52
664.344	48
664.396	40
664.448	52
664.499	44
664.551	44
664.603	46
664.655	46
664.706	40
664.758	40
664.81	48
664.862	48
664.913	46
664.965	46
665.017	64
665.069	50
665.12	48
665.172	50
665.224	54
665.276	54
665.328	46
665.379	48
665.431	48
665.483	52
665.535	44
665.586	56
665.638	52
665.69	50
665.742	50
665.793	48.015
665.845	48.1618
665.897	46.2164
665.949	58.0813
666	58.0605
666.052	38.4236
666.104	50
666.156	63.556
666.207	53.7481
666.259	42.1302
666.311	55.9149
666.363	47.2355
666.414	38.4588
666.466	52.0462
666.518	48.465
666.57	50.1888
666.621	53.0436
666.673	57.4858
666.725	53.9386
666.777	43.133
666.828	43.078
666.88	48.3392
666.932	52.558
666.984	52.8896
667.035	54.4403
667.087	57.4018
667.139	51.3311
667.191	45.4337
667.242	58.937
667.294	58.78
667.346	47.6291
667.398	47.6066
667.449	44.9466
667.501	46.7775
667.553	51.252
667.604	51.9756
667.656	45.25
667.708	52.1366
667.76	49.9819
667.811	50.5134
667.863	46.4116
667.915	48.2113
667.967	54.6422
668.018	48.1966
668.07	46.2832
668.122	54.2825
668.174	52.8329
668.225	51.03
668.277	49.861
668.329	52.99
668.38	47.7623
668.432	53.2585
668.484	54.0578
668.536	57.7688
668.587	50.3854
668.639	52.6556
668.691	49.1838
668.743	48.9576
668.794	53.2127
668.846	48.3953
668.898	50.2074
668.949	53.2471
669.001	47.2939
669.053	48.1184
669.105	54.2913
669.156	49.7223
669.208	54.2403
669.26	53.1242
669.311	53.474
669.363	51.0349
669.415	48.2667
669.467	46.3531
669.518	51.8995
669.57	51.2407
669.622	46.6932
669.673	50
669.725	55.6587
669.777	45.1014
669.829	46.2633
669.88	51.0641
669.932	48.1069
669.984	44.4266
670.035	57.3455
670.087	58.4301
670.139	50.505
670.191	53.4674
670.242	54.1356
670.294	50.9159
670.346	52.5956
670.397	53.7861
670.449	56.8495
670.501	47.2728
670.553	53.065
670.604	53.0006
670.656	54.4116
670.708	54.3927
670.759	49.8881
670.811	50.5204
670.863	50.9546
670.914	51.9582
670.966	50.4415
671.018	50.5962
671.07	53.5342
671.121	48.4473
671.173	51.7416
671.225	52.4593
671.276	51.0995
671.328	53.4573
671.38	48.5346
671.431	51.317
671.483	54
671.535	49.4835
671.586	53.4057
671.638	55.243
671.69	45.6352
671.742	51.3154
671.793	51.8297
671.845	51.5331
671.897	50.1133
671.948	51.0053
672	50.9248
672.052	52.0547
672.103	59.7341
672.155	60.234
672.207	51.2533
672.258	53.08
672.31	43.4445
672.362	51.2903
672.414	55.746
672.465	43.757
672.517	44.8273
672.569	46.9289
672.62	42.7715
672.672	50.6312
672.724	52.8886
672.775	48.3427
672.827	52.9878
672.879	51.1164
672.93	53.4263
672.982	45.2296
673.034	45.0146
673.085	56.9662
673.137	49.0878
673.189	44.5982
673.24	52.984
673.292	55.5484
673.344	56.4075
673.395	50.517
673.447	56.3634
673.499	48.641
673.55	52.0163
673.602	53.7798
673.654	50.046
673.705	49.2875
673.757	52
673.809	51.6212
673.86	49.2063
673.912	55.6281
673.964	57.5836
674.015	56.4932
674.067	47.85
674.119	47.4022
674.17	52.4996
674.222	48.5276
674.274	50.5627
674.325	47.0519
674.377	51.7735
674.429	55.6338
674.48	44.343
674.532	47.6494
674.584	52.7223
674.635	48
674.687	48.9059
674.739	50.4886
674.79	46.2835
674.842	53.8332
674.894	56.3069
674.945	52.7198
674.997	51.3446
675.049	43.6929
675.1	48.0683
675.152	58.3403
675.203	50.2757
675.255	54.7861
675.307	50.29
675.358	49.6948
675.41	51.0618
675.462	47.6921
675.513	53.257
675.565	49.5714
675.617	45.2463
675.668	53.9575
675.72	51.9244
675.772	53.6476
675.823	50.3479
675.875	52.4244
675.927	55.7716
675.978	54
676.03	53.8389
676.078	52
676.13	58
676.182	54
676.234	60
676.286	54
676.338	56
676.389	56
676.441	60
676.493	46
676.545	56
676.597	62
676.649	46
676.701	48
676.752	58
676.804	52
676.856	56
676.908	56
676.96	46
677.012	42
677.064	52
677.116	58
677.167	52
677.219	52
677.271	60
677.323	62
677.375	60
677.427	48
677.479	62
677.53	52
677.582	64
677.634	40
677.686	54
677.738	60
677.79	46
677.842	48
677.893	58
677.945	52
677.997	52
678.049	60
678.101	60
678.153	50
678.205	42
678.256	52
678.308	52
678.36	52
678.412	56
678.464	74
678.516	52
678.568	60
678.619	64
678.671	50
678.723	58
678.775	62
678.827	50
678.879	72
678.93	62
678.982	56
679.034	46
679.086	50
679.138	54
679.19	48
679.242	48
679.293	60
679.345	48
679.397	44
679.449	66
679.501	52
679.553	44
679.604	58
679.656	56
679.708	58
679.76	58
679.812	56
679.864	46
679.915	56
679.967	52
680.019	54
680.071	58
680.123	60
680.175	44
680.227	54
680.278	56
680.33	60
680.382	54
680.434	62
680.486	50
680.537	52
680.589	68
680.641	62
680.693	56
680.745	54
680.797	52
680.849	50
680.9	54
680.952	62
681.004	60
681.056	46
681.108	54
681.159	48
681.211	46
681.263	56
681.315	52
681.367	58
681.419	46
681.47	48
681.522	54
681.574	50
681.626	54
681.678	48
681.729	56
681.781	52
681.833	54
681.885	58
681.937	56
681.989	58
682.04	54
682.092	48
682.144	56
682.196	50
682.248	58
682.299	62
682.351	54
682.403	50
682.455	58
682.507	52
682.559	50
682.61	58
682.662	60
682.714	48
682.766	68
682.818	52
682.869	50
682.921	48
682.973	48
683.025	42
683.077	46
683.128	56
683.18	52
683.232	54
683.284	44
683.336	54
683.388	52
683.439	46
683.491	54
683.543	56
683.595	46
683.646	70
683.698	46
683.75	54
683.802	56
683.854	58
683.906	44
683.957	60
684.009	60
684.061	50
684.113	46
684.164	50
684.216	42
684.268	58
684.32	62
684.372	64
684.423	58
684.475	44
684.527	50
684.579	50
684.631	60
684.682	48
684.734	56
684.786	58
684.838	48
684.89	44
684.941	58
684.993	48
685.045	50
685.097	44
685.148	60
685.2	60
685.252	46
685.304	50
685.356	46
685.407	64
685.459	44
685.511	56
685.563	54
685.615	66
685.666	44
685.718	62
685.77	52
685.822	46
685.873	62
685.925	50
685.977	56
686.029	50
686.081	60
686.132	38
686.184	56
686.236	50
686.288	50
686.339	50
686.391	52
686.443	50
686.495	46
686.547	50
686.598	58
686.65	62
686.702	54
686.754	56
686.805	64
686.857	58
686.909	44
686.961	58
687.013	42
687.064	56
687.116	40
687.168	50
687.22	44
687.271	52
687.323	52
687.375	54
687.427	48
687.478	64
687.53	42
687.582	56
687.634	44
687.685	60
687.737	56
687.789	54
687.841	46
687.892	46
687.944	64
687.996	54
688.048	48
688.099	40
688.151	42
688.203	62
688.255	52
688.307	46
688.358	60
688.41	54
688.462	54
688.514	50
688.565	50
688.617	44
688.669	52
688.721	40
688.772	50
688.824	48
688.876	56
688.928	50
688.979	54
689.031	50
689.083	40
689.135	50
689.186	54
689.238	50
689.29	54
689.341	50
689.393	50
689.445	54
689.497	52
689.548	50
689.6	56
689.652	50
689.704	46
689.755	52
689.807	36
689.859	50
689.911	42
689.962	52
690.014	48
690.066	50
690.118	58
690.169	46
690.221	48
690.273	44
690.325	50
690.376	62
690.428	48
690.48	52
690.531	54
690.583	50
690.635	50
690.687	50
690.738	48
690.79	48
690.842	50
690.894	50
690.945	60
690.997	44
691.049	48
691.1	52
691.152	52
691.204	44
691.256	44
691.307	52
691.359	48
691.411	50
691.463	56
691.514	48
691.566	50
691.618	52
691.669	48
691.721	46
691.773	56
691.825	54
691.876	42
691.928	52
691.98	44
692.031	50
692.083	54
692.135	60
692.187	50
692.238	52
692.29	58
692.342	54
692.393	48
692.445	54
692.497	46
692.549	50
692.6	54
692.652	52
692.704	42
692.755	48
692.807	48
692.859	46
692.911	42
692.962	36
693.014	50
693.066	52
693.117	42
693.169	44
693.221	54
693.272	50
693.324	62
693.376	48
693.428	54
693.479	42
693.531	50
693.583	38
693.634	44
693.686	52
693.738	50
693.789	38
693.841	48
693.893	36
693.945	44
693.996	54
694.048	48
694.1	38
694.151	46
694.203	46
694.255	44
694.306	42
694.358	52
694.41	52
694.461	52
694.513	48
694.565	54
694.617	36
694.668	50
694.72	46
694.772	48
694.823	54
694.875	48
694.927	42
694.978	58
695.03	58
695.082	52
695.133	48
695.185	50
695.237	60
695.289	38
695.34	46
695.392	50
695.444	40
695.495	46
695.547	46
695.599	46
695.65	44
695.702	44
695.754	44
695.805	42
695.857	44
695.909	54
695.96	46
696.012	52
696.064	48
696.115	52
696.167	52
696.219	50
696.27	44
696.322	40
696.374	52
696.425	46
696.477	46
696.529	38
696.58	40
696.632	36
696.684	48
696.735	58
696.787	46
696.839	44
696.89	44
696.942	42
696.994	48
697.045	42
697.097	46
697.149	46
697.2	60
697.252	52
697.304	52
697.355	36
697.407	52
697.459	48
697.51	42
697.562	48
697.614	54
697.665	32
697.717	48
697.769	50
697.82	44
697.872	44
697.924	50
697.975	46
698.027	38
698.078	48
698.13	42
698.182	40
698.233	54
698.285	46
698.337	46
698.388	46
698.44	44
698.492	56
698.543	58
698.595	46
698.647	44
698.698	34
698.75	36
698.802	44
698.853	44
698.905	48
698.956	38
699.008	44
699.06	36
699.111	38
699.163	38
699.215	38
699.266	42
699.318	48
699.37	38
699.421	44
699.473	48
699.525	50
699.576	42
699.628	50
699.679	50
699.731	46
699.783	44
699.834	46
699.886	42
699.938	38
699.989	42
700.041	38
700.093	38
700.144	44
700.196	42
700.247	46
700.299	36
700.351	46
700.402	38
700.454	46
700.505	38
700.557	44
700.609	50
700.66	50
700.712	42
700.764	42
700.815	44
700.867	34
700.919	40
700.97	50
701.022	44
701.073	50
701.125	42
701.177	48
701.228	48
701.28	46
701.331	48
701.383	56
701.435	48
701.486	38
701.538	56
701.59	44
701.641	36
701.693	40
701.744	50
701.796	44
701.848	58
701.899	38
701.951	38
702.002	44
702.054	42
702.106	36
702.157	48
702.209	30
702.26	42
702.312	56
702.364	50
702.415	44
702.467	40
702.518	42
702.57	46
702.622	46
702.673	42
702.725	52
702.776	38
702.828	34
702.88	44
702.931	46
702.983	50
703.034	34
703.086	44
703.138	42
703.189	36
703.241	42
703.292	46
703.344	36
703.396	54
703.447	44
703.499	44
703.55	34
703.602	36
703.654	42
703.705	58
703.757	42
703.808	42
703.86	46
703.912	46
703.963	38
704.015	34
704.066	46
704.118	40
704.169	40
704.221	40
704.273	42
704.324	44
704.376	34
704.427	48
704.479	42
704.531	42
704.582	38
704.634	42
704.685	42
704.737	38
704.788	44
704.84	46
704.892	44
704.943	42
704.995	44
705.046	38
705.098	46
705.149	46
705.201	38
705.253	44
705.304	38
705.356	32
705.407	44
705.459	42
705.51	42
705.562	42
705.614	38
705.665	34
705.717	42
705.768	44
705.82	44
705.871	32
705.923	42
705.975	30
706.026	42
706.078	42
706.129	36
706.181	44
706.232	40
706.284	36
706.336	46
706.387	42
706.439	36
706.49	38
706.542	36
706.593	42
706.645	46
706.696	42
706.748	34
706.8	38
706.851	38
706.903	34
706.954	40
707.006	32
707.057	34
707.109	30
707.16	38
707.212	32
707.264	36
707.315	46
707.367	38
707.418	38
707.47	26
707.521	34
707.573	38
707.624	38
707.676	42
707.727	42
707.779	38
707.831	30
707.882	32
707.934	36
707.985	40
708.037	40
708.088	34
708.14	38
708.191	44
708.243	39.9887
708.294	41.9575
708.346	32.096
708.398	34
708.449	37.9944
708.501	42.0628
708.552	37.9218
708.604	39.9435
708.655	34.0209
708.707	34.1397
708.758	39.9
708.81	32.0537
708.861	34.1232
708.913	30.3077
708.964	41.3031
709.016	39.11
709.067	36.2408
709.119	42.8037
709.17	39.8177
709.222	43.2678
709.274	37.3129
709.325	41.5296
709.377	27.9104
709.428	41.6822
709.48	41.0567
709.531	40.3033
709.583	38.3063
709.634	29.6221
709.686	40.5934
709.737	43.5695
709.789	34.2537
709.84	37.3324
709.892	35.4548
709.943	39.4824
709.995	33.5103
710.046	45.6459
710.098	36.5479
710.149	29.2284
710.201	37.7134
710.252	38.7328
710.304	33.3702
710.355	42.8178
710.407	34.087
710.458	28.3996
710.51	36.3301
710.562	41.8401
710.613	31.8725
710.665	32.224
710.716	40.2376
710.768	30.0102
710.819	38.708
710.871	39.6306
710.922	34.5228
710.974	34.9347
711.025	37.3989
711.077	30.213
711.128	40.9353
711.18	40.4341
711.231	32.9085
711.283	38.8276
711.334	38.8079
711.386	33.199
711.437	40.9721
711.489	34.3874
711.54	39.1668
711.592	37.9207
711.643	32.0039
711.695	28.0063
711.746	37.2997
711.798	34.0089
711.849	31.3892
711.901	32.7861
711.952	30.0742
712.004	30.9537
712.055	38.734
712.107	32.6614
712.158	39.111
712.21	37.4901
712.261	35.6059
712.313	31.2109
712.364	30.0647
712.416	30.6064
712.467	35.4464
712.519	34.6985
712.57	36.035
712.622	32.3152
712.673	32.4118
712.724	31.4596
712.776	36.4279
712.827	43.5947
712.879	39.3653
712.93	36.587
712.982	31.684
713.033	33.3474
713.085	32.9535
713.136	34.6987
713.188	31.3525
713.239	29.624
713.291	35.5875
713.342	37.2026
713.394	29.6274
713.445	33.3766
713.497	31.4533
713.548	33.6259
713.6	31.1443
713.651	31.9212
713.703	36.4781
713.754	30.4632
713.806	34.2713
713.857	35.1762
713.909	30.9086
713.96	34.8767
714.011	34.8809
714.063	42.1768
714.114	34.9492
714.166	26.8003
714.217	34.2611
714.269	35.0013
714.32	32.2922
714.372	32.8227
714.423	42.3728
714.475	37.1694
714.526	30.68
714.578	39.7134
714.629	32.9034
714.681	35.0932
714.732	31.948
714.784	32.1233
714.835	29.798
714.886	36.3448
714.938	39.8571
714.989	40.4244
715.041	33.3157
715.092	36.1862
715.144	34.4717
715.195	30.0989
715.247	29.4755
715.298	31.7209
715.35	32.4849
715.401	31.5246
715.452	30.9277
715.504	36.6404
715.555	38.4774
715.607	33.2162
715.658	34
715.71	32.867
715.761	33.4433
715.813	33.622
715.864	35.9405
715.916	39.5143
715.967	34.2338
716.018	33.8468
716.07	35.0776
716.121	36.8166
716.173	36.602
716.224	33.6943
716.276	32
716.327	30.1453
716.379	29.6257
716.43	32.9147
716.481	37.6442
716.533	38.9528
716.584	34.9846
716.636	36.5927
716.687	32.1039
716.739	31.4778
716.79	35.2221
716.841	38.2512
716.893	36.9698
716.944	33.67
716.996	32.9703
717.047	36
717.099	35.9854
717.15	34.4902
717.202	34
717.253	31.7025
717.304	31.3957
717.356	31.1287
717.407	30.338
717.459	30.8247
717.51	30.5527
717.562	30.7199
717.613	29.0165
717.664	25.1279
717.716	28.8456
717.767	31.0345
717.819	28.3209
717.87	29.1132
717.922	30.4809
717.973	30.7421
718.024	32.1095
718.076	32.562
718.127	35.1872
718.179	35.1811
718.23	34.2243
718.281	32.0739
718.333	31.8079
718.384	34.4181
718.436	35.516
718.487	30.4107
718.539	26.405
718.59	25.579
718.641	31.8188
718.673	38
718.725	32
718.777	32
718.828	36
718.88	38
718.932	30
718.983	30
719.035	32
719.087	34
719.138	36
719.19	28
719.242	36
719.293	32
719.345	36
719.397	24
719.448	30
719.5	32
719.552	24
719.603	34
719.655	34
719.706	32
719.758	34
719.81	32
719.861	36
719.913	30
719.965	36
720.016	36
720.068	30
720.12	38
720.171	34
720.223	30
720.275	36
720.326	34
720.378	26
720.43	36
720.481	40
720.533	26
720.584	36
720.636	34
720.688	26
720.739	26
720.791	44
720.843	28
720.894	32
720.946	24
720.997	32
721.049	32
721.101	24
721.152	30
721.204	34
721.256	36
721.307	30
721.359	28
721.411	24
721.462	32
721.514	42
721.565	26
721.617	32
721.669	32
721.72	24
721.772	32
721.824	36
721.875	30
721.927	32
721.978	32
722.03	28
722.082	26
722.133	30
722.185	28
722.237	32
722.288	30
722.34	38
722.391	34
722.443	38
722.495	24
722.546	32
722.598	28
722.65	34
722.701	30
722.753	26
722.804	26
722.856	36
722.908	26
722.959	34
723.011	36
723.063	36
723.114	32
723.166	36
723.217	28
723.269	28
723.321	38
723.372	34
723.424	22
723.475	34
723.527	40
723.579	34
723.63	28
723.682	30
723.733	28
723.785	26
723.837	22
723.888	32
723.94	40
723.991	24
724.043	30
724.095	34
724.146	24
724.198	38
724.25	20
724.301	34
724.353	32
724.404	26
724.456	32
724.508	34
724.559	28
724.611	28
724.662	34
724.714	22
724.766	32
724.817	32
724.869	30
724.92	30
724.972	32
725.023	26
725.075	30
725.127	34
725.178	36
725.23	34
725.281	30
725.333	28
725.385	32
725.436	40
725.488	22
725.539	36
725.591	36
725.643	30
725.694	28
725.746	28
725.797	32
725.849	30
725.901	36
725.952	30
726.004	26
726.055	28
726.107	34
726.158	28
726.21	36
726.262	34
726.313	32
726.365	26
726.416	28
726.468	20
726.519	24
726.571	32
726.623	26
726.674	36
726.726	30
726.777	24
726.829	30
726.881	30
726.932	24
726.984	30
727.035	32
727.087	22
727.138	28
727.19	34
727.242	40
727.293	26
727.345	26
727.396	32
727.448	28
727.499	26
727.551	26
727.603	32
727.654	36
727.706	36
727.757	28
727.809	26
727.86	32
727.912	26
727.964	36
728.015	28
728.067	26
728.118	22
728.17	26
728.221	28
728.273	32
728.324	32
728.376	26
728.428	28
728.479	28
728.531	28
728.582	30
728.634	30
728.685	26
728.737	38
728.788	34
728.84	28
728.892	32
728.943	38
728.995	30
729.046	24
729.098	40
729.149	28
729.201	38
729.252	22
729.304	32
729.356	34
729.407	28
729.459	30
729.51	44
729.562	22
729.613	32
729.665	28
729.716	36
729.768	22
729.819	36
729.871	32
729.923	30
729.974	30
730.026	30
730.077	32
730.129	28
730.18	38
730.232	18
730.283	24
730.335	34
730.386	26
730.438	36
730.49	28
730.541	20
730.593	24
730.644	32
730.696	26
730.747	32
730.799	26
730.85	32
730.902	28
730.953	28
731.005	22
731.056	34
731.108	14
731.159	30
731.211	32
731.262	36
731.314	34
731.366	24
731.417	26
731.469	28
731.52	36
731.572	32
731.623	30
731.675	26
731.726	26
731.778	28
731.829	28
731.881	28
731.932	30
731.984	30
732.035	24
732.087	34
732.138	26
732.19	26
732.241	28
732.293	22
732.344	30
732.396	34
732.448	24
732.499	30
732.551	36
732.602	26
732.654	30
732.705	32
732.757	32
732.808	34
732.86	30
732.911	28
732.963	34
733.014	22
733.066	34
733.117	30
733.169	34
733.22	24
733.272	22
733.323	28
733.375	38
733.426	30
733.478	28
733.529	20
733.581	36
733.632	30
733.684	30
733.735	32
733.787	22
733.838	30
733.89	24
733.941	28
733.993	34
734.044	26
734.096	18
734.147	28
734.199	28
734.25	28
734.302	34
734.353	26
734.405	30
734.456	26
734.508	34
734.559	30
734.611	32
734.662	22
734.714	20
734.765	42
734.817	28
734.868	20
734.92	32
734.971	24
735.023	24
735.074	36
735.126	34
735.177	26
735.229	32
735.28	28
735.332	32
735.383	34
735.435	26
735.486	24
735.537	36
735.589	26
735.64	24
735.692	30
735.743	28
735.795	24
735.846	28
735.898	24
735.949	26
736.001	26
736.052	22
736.104	22
736.155	30
736.207	20
736.258	30
736.31	28
736.361	18
736.413	26
736.464	26
736.516	40
736.567	38
736.618	28
736.67	32
736.721	30
736.773	24
736.824	34
736.876	32
736.927	34
736.979	28
737.03	28
737.082	40
737.133	26
737.185	28
737.236	32
737.288	26
737.339	24
737.391	32
737.442	28
737.493	38
737.545	22
737.596	30
737.648	26
737.699	30
737.751	28
737.802	30
737.854	24
737.905	18
737.957	28
738.008	28
738.059	20
738.111	26
738.162	32
738.214	30
738.265	24
738.317	22
738.368	28
738.42	28
738.471	28
738.523	22
738.574	28
738.625	20
738.677	34
738.728	34
738.78	28
738.831	26
738.883	30
738.934	28
738.986	22
739.037	38
739.088	18
739.14	26
739.191	32
739.243	30
739.294	22
739.346	32
739.397	38
739.448	32
739.5	20
739.551	34
739.603	32
739.654	20
739.706	28
739.757	32
739.809	24
739.86	32
739.911	30
739.963	32
740.014	26
740.066	30
740.117	34
740.169	24
740.22	18
740.271	38
740.323	32
740.374	22
740.426	20
740.477	30
740.529	28
740.58	28
740.631	22
740.683	24
740.734	22
740.786	28
740.837	32
740.889	26
740.94	24
740.991	16
741.043	32
741.094	26
741.146	24
741.197	26
741.249	26
741.3	24
741.351	20
741.403	18
741.454	28
741.506	24
741.557	20
741.608	30
741.66	26
741.711	22
741.763	22
741.814	28
741.866	30
741.917	22
741.968	24
742.02	34
742.071	28
742.123	24
742.174	26
742.225	32
742.277	30
742.328	26
742.38	30
742.431	24
742.482	24
742.534	22
742.585	30
742.637	34
742.688	26
742.739	34
742.791	28
742.842	16
742.894	22
742.945	26
742.996	26
743.048	26
743.099	26
743.151	26
743.202	28
743.253	28
743.305	30
743.356	26
743.408	28
743.459	28
743.51	24
743.562	34
743.613	30
743.665	28
743.716	26
743.767	24
743.819	20
743.87	32
743.922	20
743.973	32
744.024	24
744.076	28
744.127	22
744.178	32
744.23	28
744.281	28
744.333	34
744.384	22
744.435	26
744.487	34
744.538	22
744.59	26
744.641	26
744.692	28
744.744	32
744.795	26
744.846	32
744.898	30
744.949	22
745.001	22
745.052	34
745.103	26
745.155	30
745.206	30
745.257	26
745.309	18
745.36	30
745.412	22
745.463	38
745.514	24
745.566	30
745.617	24
745.668	36
745.72	26
745.771	22
745.823	36
745.874	22
745.925	26
745.977	30
746.028	28
746.079	20
746.131	34
746.182	24
746.233	22
746.285	24
746.336	28
746.388	18
746.439	30
746.49	28
746.542	18
746.593	24
746.644	20
746.696	22
746.747	16
746.798	20
746.85	26
746.901	34
746.952	22
747.004	20
747.055	26
747.106	20
747.158	22
747.209	30
747.26	30
747.312	24
747.363	14
747.415	26
747.466	24
747.517	22
747.569	24
747.62	24
747.671	24
747.723	32
747.774	20
747.825	28
747.877	22
747.928	20
747.979	24
748.031	34
748.082	22
748.133	30
748.185	26
748.236	28
748.287	26
748.339	22
748.39	24
748.441	26
748.493	28
748.544	22
748.595	20
748.647	16
748.698	28
748.749	30
748.801	26
748.852	16
748.903	24
748.955	26
749.006	24
749.057	24
749.109	24
749.16	28
749.211	28
749.263	32
749.314	30
749.365	26
749.417	28
749.468	24
749.519	30
749.571	26
749.622	28
749.673	26
749.725	26
749.776	24
749.827	28
749.879	32
749.93	34
749.981	26
750.033	26
750.084	22
750.135	24
750.186	26
750.238	28
750.289	34
750.34	26
750.392	24
750.443	26
750.494	32
750.546	18
750.597	34
750.648	18
750.7	30
750.751	26
750.802	18
750.854	32
750.905	28
750.956	14
751.007	28
751.059	30
751.11	22
751.161	30
751.213	30
751.264	24
751.315	23
751.367	22
751.418	16
751.469	16
751.52	28
751.572	28
751.623	16
751.674	18
751.726	26
751.777	30
751.828	20
751.88	28
751.931	30
751.982	20
752.033	20
752.085	26
752.136	28
752.187	24
752.239	14
752.29	28
752.341	30
752.392	22
752.444	28
752.495	28
752.546	20
752.598	22
752.649	30
752.7	16
752.751	24
752.803	26
752.854	26
752.905	22
752.957	24
753.008	24
753.059	26
753.11	24
753.162	22
753.213	22
753.264	24
753.316	22
753.367	28
753.418	26
753.469	22
753.521	32
753.572	20
753.623	26
753.674	22
753.726	26
753.777	26
753.828	26
753.88	16
753.931	22
753.982	24
754.033	24
754.085	22
754.136	22
754.187	24
754.238	26
754.29	20
754.341	22
754.392	22
754.444	20
754.495	22
754.546	16
754.597	22
754.649	22
754.7	26
754.751	22
754.802	20
754.854	32
754.905	24
754.956	32
755.007	18
755.059	22
755.11	30
755.161	24
755.212	16
755.264	24
755.315	26
755.366	16
755.417	30
755.469	26
755.52	26
755.571	22
755.622	24
755.674	26
755.725	30
755.776	22
755.827	30
755.879	26
755.93	22
755.981	26
756.032	30
756.084	18
756.135	26
756.186	18
756.237	20
756.289	16
756.34	24
756.391	20
756.442	24
756.494	22
756.545	26
756.596	26
756.647	18
756.699	22
756.75	20
756.801	30
756.852	30
756.903	24
756.955	26
757.006	28
757.057	24
757.108	22
757.16	24
757.211	26
757.262	18
757.313	18
757.365	26
757.416	20
757.467	24
757.518	28
757.569	20
757.621	24
757.672	26
757.723	26
757.774	24
757.826	30
757.877	22
757.928	22
757.979	26
758.03	26
758.082	26
758.133	18
758.184	22
758.235	32
758.287	26
758.338	20
758.389	24
758.44	24
758.491	24
758.543	22
758.594	32
758.645	18
758.696	30
758.747	32
758.799	20
758.85	24
758.901	24
758.952	24
759.004	18
759.055	28
759.106	28
759.157	24
759.208	26
759.26	28
759.311	16
759.362	24
759.413	18
759.464	18
759.516	28
759.567	22
759.618	24
759.669	20
759.72	26
759.772	26
759.823	20
759.874	22
759.925	28
759.976	20
